[{"view_history":[{"page_index":0,"viewing_time":796},{"page_index":1,"viewing_time":280},{"page_index":2,"viewing_time":348}],"rt":1425,"trial_type":"instructions","trial_index":0,"time_elapsed":1425,"internal_node_id":"0.0-0.0","participant_id":"participant_123","survey_id":"survey_456"},{"rt":10879,"response":{"Q0":"My name is Matt and I like surveys","Q1":"To learn about how to use the API"},"trial_type":"survey-text","trial_index":1,"time_elapsed":12307,"internal_node_id":"0.0-1.0","participant_id":"participant_123","survey_id":"survey_456","alias_questions":{"page1-Q0":"Tell me about yourself","page1-Q1":"Why are you participating in this study?"},"alias_responses":{"page1-Q0":"My name is Matt and I like surveys","page1-Q1":"To learn about how to use the API"},"alias_question_histories":{"page1-Q0":[{"s":"M","t":0},{"s":"My","t":144},{"s":"My ","t":221},{"s":"My n","t":360},{"s":"My na","t":473},{"s":"My naj","t":584},{"s":"My naje","t":734},{"s":"My naj","t":1056},{"s":"My na","t":1185},{"s":"My nam","t":1351},{"s":"My name","t":1441},{"s":"My name ","t":1501},{"s":"My name i","t":1616},{"s":"My name is","t":1666},{"s":"My name is ","t":1762},{"s":"My name is M","t":2076},{"s":"My name is Ma","t":2194},{"s":"My name is Mat","t":2291},{"s":"My name is Matt","t":2442},{"s":"My name is Matt ","t":2510},{"s":"My name is Matt a","t":2593},{"s":"My name is Matt an","t":2686},{"s":"My name is Matt and","t":2766},{"s":"My name is Matt and ","t":2828},{"s":"My name is Matt and I","t":2971},{"s":"My name is Matt and I ","t":3115},{"s":"My name is Matt and I l","t":3223},{"s":"My name is Matt and I li","t":3299},{"s":"My name is Matt and I lik","t":3430},{"s":"My name is Matt and I like","t":3537},{"s":"My name is Matt and I like ","t":3609},{"s":"My name is Matt and I like s","t":3702},{"s":"My name is Matt and I like su","t":3766},{"s":"My name is Matt and I like sur","t":3875},{"s":"My name is Matt and I like surv","t":3945},{"s":"My name is Matt and I like surve","t":4040},{"s":"My name is Matt and I like survey","t":4099},{"s":"My name is Matt and I like surveys","t":4226}],"page1-Q1":[{"s":"T","t":0},{"s":"To","t":139},{"s":"To ","t":289},{"s":"To l","t":414},{"s":"To le","t":471},{"s":"To lea","t":605},{"s":"To lear","t":658},{"s":"To learn","t":734},{"s":"To learn ","t":899},{"s":"To learn a","t":981},{"s":"To learn ab","t":1053},{"s":"To learn abo","t":1101},{"s":"To learn abou","t":1138},{"s":"To learn about","t":1250},{"s":"To learn about ","t":1306},{"s":"To learn about h","t":1463},{"s":"To learn about ho","t":1507},{"s":"To learn about how","t":1600},{"s":"To learn about how ","t":1689},{"s":"To learn about how t","t":1805},{"s":"To learn about how to","t":1821},{"s":"To learn about how to ","t":1954},{"s":"To learn about how to u","t":2147},{"s":"To learn about how to us","t":2210},{"s":"To learn about how to use","t":2282},{"s":"To learn about how to use ","t":2370},{"s":"To learn about how to use t","t":2634},{"s":"To learn about how to use th","t":2707},{"s":"To learn about how to use the","t":2805},{"s":"To learn about how to use the ","t":2862},{"s":"To learn about how to use the A","t":3050},{"s":"To learn about how to use the AP","t":3111},{"s":"To learn about how to use the API","t":3195}]}},{"rt":6696,"response":{"Q0":"To see if we know how to use the API"},"trial_type":"survey-text","trial_index":2,"time_elapsed":19006,"internal_node_id":"0.0-2.0","participant_id":"participant_123","survey_id":"survey_456","alias_questions":{"page2-Q0":"What do you think was the purpose of this experiment?"},"alias_responses":{"page2-Q0":"To see if we know how to use the API"},"alias_question_histories":{"page2-Q0":[{"s":"T","t":0},{"s":"To","t":118},{"s":"To ","t":302},{"s":"To s","t":1495},{"s":"To se","t":1604},{"s":"To see","t":1779},{"s":"To see ","t":1829},{"s":"To see i","t":1964},{"s":"To see if","t":2019},{"s":"To see if ","t":2112},{"s":"To see if w","t":2173},{"s":"To see if we","t":2245},{"s":"To see if we ","t":2423},{"s":"To see if we k","t":2630},{"s":"To see if we kn","t":2723},{"s":"To see if we kno","t":2816},{"s":"To see if we know","t":2904},{"s":"To see if we know ","t":2971},{"s":"To see if we know h","t":3142},{"s":"To see if we know ho","t":3165},{"s":"To see if we know how","t":3233},{"s":"To see if we know how ","t":3346},{"s":"To see if we know how t","t":3457},{"s":"To see if we know how to","t":3481},{"s":"To see if we know how to ","t":3604},{"s":"To see if we know how to u","t":3721},{"s":"To see if we know how to us","t":3781},{"s":"To see if we know how to use","t":3832},{"s":"To see if we know how to use ","t":3913},{"s":"To see if we know how to use t","t":4033},{"s":"To see if we know how to use th","t":4091},{"s":"To see if we know how to use the","t":4177},{"s":"To see if we know how to use the ","t":4236},{"s":"To see if we know how to use the A","t":4419},{"s":"To see if we know how to use the AP","t":4423},{"s":"To see if we know how to use the API","t":4485}]}}]